[{"id":"startscreen","duration":0,"ISI":0,"event":32,"RT":1531.829295},{"id":"startblock","duration":0,"ISI":0,"event":32,"RT":565.441458},{"id":"cross","duration":250,"ISI":300,"RT":0,"event":"nonresponse"},{"id":"react_right - position_right","duration":400,"ISI":938,"correctResponse":107,"block":1,"trial":1,"congruency":"congruent","RT":0,"event":"nonresponse","correct":0},{"id":"cross","duration":250,"ISI":300,"event":107,"RT":439.167418},{"id":"react_left - position_right","duration":400,"ISI":895,"correctResponse":115,"block":1,"trial":2,"congruency":"incongruent","event":107,"RT":546.2971310000003,"correct":0},{"id":"cross","duration":250,"ISI":300,"RT":0,"event":"nonresponse"},{"id":"react_left - position_right","duration":400,"ISI":802,"correctResponse":115,"block":1,"trial":3,"congruency":"incongruent","event":115,"RT":634.2867050000004,"correct":1},{"id":"cross","duration":250,"ISI":300,"RT":0,"event":"nonresponse"},{"id":"react_right - position_right","duration":400,"ISI":903,"correctResponse":107,"block":1,"trial":4,"congruency":"congruent","event":107,"RT":446.68977799999993,"correct":1},{"id":"cross","duration":250,"ISI":300,"RT":0,"event":"nonresponse"},{"id":"react_left - position_right","duration":400,"ISI":826,"correctResponse":115,"block":1,"trial":5,"congruency":"incongruent","event":115,"RT":577.6536690000012,"correct":1},{"id":"cross","duration":250,"ISI":300,"RT":0,"event":"nonresponse"},{"id":"react_left - position_right","duration":400,"ISI":881,"correctResponse":115,"block":1,"trial":6,"congruency":"incongruent","event":115,"RT":559.1510190000008,"correct":1},{"id":"cross","duration":250,"ISI":300,"RT":0,"event":"nonresponse"},{"id":"react_left - position_right","duration":400,"ISI":970,"correctResponse":115,"block":1,"trial":7,"congruency":"incongruent","event":115,"RT":446.1999610000021,"correct":1},{"id":"cross","duration":250,"ISI":300,"RT":0,"event":"nonresponse"},{"id":"react_left - position_right","duration":400,"ISI":931,"correctResponse":115,"block":1,"trial":8,"congruency":"incongruent","event":115,"RT":483.2484920000006,"correct":1},{"id":"cross","duration":250,"ISI":300,"RT":0,"event":"nonresponse"},{"id":"react_right - position_left","duration":400,"ISI":1030,"correctResponse":107,"block":1,"trial":9,"congruency":"incongruent","event":107,"RT":525.1731849999996,"correct":1},{"id":"cross","duration":250,"ISI":300,"RT":0,"event":"nonresponse"},{"id":"react_left - position_left","duration":400,"ISI":762,"correctResponse":115,"block":1,"trial":10,"congruency":"congruent","event":115,"RT":505.7062769999975,"correct":1},{"id":"startblock","duration":0,"ISI":0,"event":32,"RT":646.436235000001},{"id":"cross","duration":250,"ISI":300,"RT":0,"event":"nonresponse"},{"id":"react_left - position_left","duration":400,"ISI":837,"correctResponse":115,"block":2,"trial":1,"congruency":"congruent","event":115,"RT":493.16118899999856,"correct":1},{"id":"cross","duration":250,"ISI":300,"RT":0,"event":"nonresponse"},{"id":"react_right - position_right","duration":400,"ISI":898,"correctResponse":107,"block":2,"trial":2,"congruency":"congruent","event":107,"RT":433.96907400000055,"correct":1},{"id":"cross","duration":250,"ISI":300,"RT":0,"event":"nonresponse"},{"id":"react_left - position_left","duration":400,"ISI":950,"correctResponse":115,"block":2,"trial":3,"congruency":"congruent","event":115,"RT":411.7426970000015,"correct":1},{"id":"cross","duration":250,"ISI":300,"RT":0,"event":"nonresponse"},{"id":"react_right - position_left","duration":400,"ISI":788,"correctResponse":107,"block":2,"trial":4,"congruency":"incongruent","event":107,"RT":573.6736270000001,"correct":1},{"id":"cross","duration":250,"ISI":300,"RT":0,"event":"nonresponse"},{"id":"react_left - position_left","duration":400,"ISI":1063,"correctResponse":115,"block":2,"trial":5,"congruency":"congruent","event":115,"RT":438.81157099999837,"correct":1},{"id":"cross","duration":250,"ISI":300,"RT":0,"event":"nonresponse"},{"id":"react_right - position_right","duration":400,"ISI":938,"correctResponse":107,"block":2,"trial":6,"congruency":"congruent","event":107,"RT":479.3275779999967,"correct":1},{"id":"cross","duration":250,"ISI":300,"RT":0,"event":"nonresponse"},{"id":"react_right - position_right","duration":400,"ISI":865,"correctResponse":107,"block":2,"trial":7,"congruency":"congruent","event":107,"RT":477.57572299999447,"correct":1},{"id":"cross","duration":250,"ISI":300,"RT":0,"event":"nonresponse"},{"id":"react_right - position_right","duration":400,"ISI":711,"correctResponse":107,"block":2,"trial":8,"congruency":"congruent","event":107,"RT":423.99349300000176,"correct":1},{"id":"cross","duration":250,"ISI":300,"RT":0,"event":"nonresponse"},{"id":"react_left - position_left","duration":400,"ISI":1022,"correctResponse":115,"block":2,"trial":9,"congruency":"congruent","event":115,"RT":435.4452029999957,"correct":1},{"id":"cross","duration":250,"ISI":300,"RT":0,"event":"nonresponse"},{"id":"react_left - position_right","duration":400,"ISI":759,"correctResponse":115,"block":2,"trial":10,"congruency":"incongruent","event":107,"RT":400.23771500000294,"correct":0},{"id":"startblock","duration":0,"ISI":0,"event":32,"RT":724.5741260000068},{"id":"cross","duration":250,"ISI":300,"RT":0,"event":"nonresponse"},{"id":"react_right - position_right","duration":400,"ISI":748,"correctResponse":107,"block":3,"trial":1,"congruency":"congruent","event":107,"RT":461.51102600000013,"correct":1},{"id":"cross","duration":250,"ISI":300,"RT":0,"event":"nonresponse"},{"id":"react_left - position_right","duration":400,"ISI":837,"correctResponse":115,"block":3,"trial":2,"congruency":"incongruent","event":115,"RT":508.1504279999863,"correct":1},{"id":"cross","duration":250,"ISI":300,"RT":0,"event":"nonresponse"},{"id":"react_right - position_left","duration":400,"ISI":725,"correctResponse":107,"block":3,"trial":3,"congruency":"incongruent","event":107,"RT":476.5526780000073,"correct":1},{"id":"cross","duration":250,"ISI":300,"RT":0,"event":"nonresponse"},{"id":"react_left - position_right","duration":400,"ISI":877,"correctResponse":115,"block":3,"trial":4,"congruency":"incongruent","event":115,"RT":431.91021499999624,"correct":1},{"id":"cross","duration":250,"ISI":300,"RT":0,"event":"nonresponse"},{"id":"react_left - position_right","duration":400,"ISI":1083,"correctResponse":115,"block":3,"trial":5,"congruency":"incongruent","event":115,"RT":452.5817870000028,"correct":1},{"id":"cross","duration":250,"ISI":300,"RT":0,"event":"nonresponse"},{"id":"react_right - position_right","duration":400,"ISI":722,"correctResponse":107,"block":3,"trial":6,"congruency":"congruent","event":107,"RT":496.122506000007,"correct":1},{"id":"cross","duration":250,"ISI":300,"RT":0,"event":"nonresponse"},{"id":"react_left - position_left","duration":400,"ISI":1023,"correctResponse":115,"block":3,"trial":7,"congruency":"congruent","event":115,"RT":396.1100680000018,"correct":1},{"id":"cross","duration":250,"ISI":300,"RT":0,"event":"nonresponse"},{"id":"react_right - position_right","duration":400,"ISI":918,"correctResponse":107,"block":3,"trial":8,"congruency":"congruent","event":107,"RT":396.935080999996,"correct":1},{"id":"cross","duration":250,"ISI":300,"RT":0,"event":"nonresponse"},{"id":"react_left - position_left","duration":400,"ISI":848,"correctResponse":115,"block":3,"trial":9,"congruency":"congruent","event":115,"RT":421.63001500000246,"correct":1},{"id":"cross","duration":250,"ISI":300,"RT":0,"event":"nonresponse"},{"id":"react_left - position_left","duration":400,"ISI":1068,"correctResponse":115,"block":3,"trial":10,"congruency":"congruent","event":115,"RT":380.86961899999733,"correct":1},{"id":"startblock","duration":0,"ISI":0,"event":32,"RT":688.5074390000082},{"id":"cross","duration":250,"ISI":300,"RT":0,"event":"nonresponse"},{"id":"react_right - position_left","duration":400,"ISI":960,"correctResponse":107,"block":4,"trial":1,"congruency":"incongruent","event":107,"RT":561.3076050000018,"correct":1},{"id":"cross","duration":250,"ISI":300,"RT":0,"event":"nonresponse"},{"id":"react_left - position_right","duration":400,"ISI":998,"correctResponse":115,"block":4,"trial":2,"congruency":"incongruent","event":115,"RT":385.5825979999936,"correct":1},{"id":"cross","duration":250,"ISI":300,"RT":0,"event":"nonresponse"},{"id":"react_left - position_right","duration":400,"ISI":873,"correctResponse":115,"block":4,"trial":3,"congruency":"incongruent","event":107,"RT":345.1756810000079,"correct":0},{"id":"cross","duration":250,"ISI":300,"RT":0,"event":"nonresponse"},{"id":"react_right - position_right","duration":400,"ISI":742,"correctResponse":107,"block":4,"trial":4,"congruency":"congruent","event":107,"RT":387.2470900000044,"correct":1},{"id":"cross","duration":250,"ISI":300,"RT":0,"event":"nonresponse"},{"id":"react_right - position_left","duration":400,"ISI":923,"correctResponse":107,"block":4,"trial":5,"congruency":"incongruent","event":107,"RT":512.3815239999967,"correct":1},{"id":"cross","duration":250,"ISI":300,"RT":0,"event":"nonresponse"},{"id":"react_right - position_right","duration":400,"ISI":895,"correctResponse":107,"block":4,"trial":6,"congruency":"congruent","event":107,"RT":425.7794009999925,"correct":1},{"id":"cross","duration":250,"ISI":300,"RT":0,"event":"nonresponse"},{"id":"react_left - position_left","duration":400,"ISI":774,"correctResponse":115,"block":4,"trial":7,"congruency":"congruent","event":115,"RT":408.8686239999952,"correct":1},{"id":"cross","duration":250,"ISI":300,"RT":0,"event":"nonresponse"},{"id":"react_right - position_right","duration":400,"ISI":1038,"correctResponse":107,"block":4,"trial":8,"congruency":"congruent","event":107,"RT":419.5209679999971,"correct":1},{"id":"cross","duration":250,"ISI":300,"RT":0,"event":"nonresponse"},{"id":"react_left - position_left","duration":400,"ISI":763,"correctResponse":115,"block":4,"trial":9,"congruency":"congruent","event":115,"RT":445.403376000002,"correct":1},{"id":"cross","duration":250,"ISI":300,"RT":0,"event":"nonresponse"},{"id":"react_left - position_left","duration":400,"ISI":958,"correctResponse":115,"block":4,"trial":10,"congruency":"congruent","event":115,"RT":403.03874500001257,"correct":1},{"id":"startblock","duration":0,"ISI":0,"event":32,"RT":644.2302679999993},{"id":"cross","duration":250,"ISI":300,"RT":0,"event":"nonresponse"},{"id":"react_left - position_right","duration":400,"ISI":929,"correctResponse":115,"block":5,"trial":1,"congruency":"incongruent","event":115,"RT":517.7943359999917,"correct":1},{"id":"cross","duration":250,"ISI":300,"RT":0,"event":"nonresponse"},{"id":"react_right - position_right","duration":400,"ISI":700,"correctResponse":107,"block":5,"trial":2,"congruency":"congruent","event":115,"RT":422.6949539999914,"correct":0},{"id":"cross","duration":250,"ISI":300,"RT":0,"event":"nonresponse"},{"id":"react_right - position_left","duration":400,"ISI":864,"correctResponse":107,"block":5,"trial":3,"congruency":"incongruent","event":115,"RT":442.2339360000042,"correct":0},{"id":"cross","duration":250,"ISI":300,"RT":0,"event":"nonresponse"},{"id":"react_left - position_left","duration":400,"ISI":1027,"correctResponse":115,"block":5,"trial":4,"congruency":"congruent","event":115,"RT":407.3138629999885,"correct":1},{"id":"cross","duration":250,"ISI":300,"RT":0,"event":"nonresponse"},{"id":"react_left - position_right","duration":400,"ISI":978,"correctResponse":115,"block":5,"trial":5,"congruency":"incongruent","event":115,"RT":546.578726000007,"correct":1},{"id":"cross","duration":250,"ISI":300,"RT":0,"event":"nonresponse"},{"id":"react_left - position_left","duration":400,"ISI":1059,"correctResponse":115,"block":5,"trial":6,"congruency":"congruent","event":115,"RT":365.69103899999755,"correct":1},{"id":"cross","duration":250,"ISI":300,"RT":0,"event":"nonresponse"},{"id":"react_right - position_left","duration":400,"ISI":819,"correctResponse":107,"block":5,"trial":7,"congruency":"incongruent","event":115,"RT":464.9610549999925,"correct":0},{"id":"cross","duration":250,"ISI":300,"RT":0,"event":"nonresponse"},{"id":"react_left - position_right","duration":400,"ISI":982,"correctResponse":115,"block":5,"trial":8,"congruency":"incongruent","event":107,"RT":389.0057499999966,"correct":0},{"id":"cross","duration":250,"ISI":300,"RT":0,"event":"nonresponse"},{"id":"react_right - position_right","duration":400,"ISI":1046,"correctResponse":107,"block":5,"trial":9,"congruency":"congruent","event":107,"RT":455.6567670000077,"correct":1},{"id":"cross","duration":250,"ISI":300,"RT":0,"event":"nonresponse"},{"id":"react_right - position_right","duration":400,"ISI":772,"correctResponse":107,"block":5,"trial":10,"congruency":"congruent","event":107,"RT":456.6199320000014,"correct":1},{"id":"endscreen","duration":0,"ISI":0}]